TrialNumber,Trial,Reciprocate,Partner,ITI,cLeft,ISI,cRight,ran,order,onset,bpress,resp,resp_onset,highlow,rt,ISIpad,ISI_onset,ISI_offset,outcome_onset,outcome_offset,duration,ITI_onset,ITI_offset
1,1,0,3,2,0,2,2,1.0,0.0,4.25034,3.0,2,6.06539,high,1.81505,1.18495,6.59595,11.0003,11.0152,13.0199,8.7696,13.0203,14.9998
2,2,1,3,2,0,5.000000e-01,2,1.0,1.0,15.1875,3.0,2,16.9909,high,1.80337,1.19663,17.5214,20.436,20.4513,22.4563,7.26883,22.4566,24.4362
3,3,1,2,4,2,2,4,1.0,2.0,24.7124,3.0,4,26.3484,high,1.63597,1.36403,26.8778,31.4616,31.4763,33.4815,8.76911,33.4818,37.462
4,4,0,3,6,4,3.500000e+00,0,1.0,3.0,37.7316,2.0,4,39.3592,high,1.6276,1.3724,39.8893,45.9802,45.9925,47.9971,10.2655,47.9974,53.9814
5,5,1,3,4,2,2,8,1.0,4.0,54.2226,3.0,8,55.7058,high,1.48318,1.51682,56.2356,60.9716,60.985,62.9898,8.76716,62.99,66.9728
6,6,0,1,6,0,5.000000e-01,4,1.0,5.0,67.0044,3.0,4,68.6165,high,1.61213,1.38787,69.1472,72.2536,72.2676,74.2732,7.26879,74.2734,80.2537
7,7,0,1,4,8,3.500000e+00,4,1.0,6.0,80.2642,3.0,4,81.9107,low,1.64641,1.35359,82.4409,88.5132,88.5135,90.5176,10.2533,90.5178,94.5132
8,8,0,3,2,2,5.000000e-01,4,1.0,7.0,94.7472,3.0,4,96.4226,high,1.67538,1.32462,96.9523,99.9962,100.009,102.014,7.26643,102.014,103.995
9,9,0,2,8,0,5.000000e-01,8,1.0,8.0,104.232,3.0,8,105.68,high,1.4479,1.5521,106.209,109.482,109.494,111.499,7.26645,111.499,119.483
10,10,1,1,2,0,5.000000e-01,8,1.0,9.0,119.491,3.0,8,121.043,high,1.55148,1.44852,121.572,124.741,124.757,126.762,7.2706,126.762,128.742
11,11,1,1,2,8,5.000000e-01,2,1.0,10.0,128.757,2.0,8,130.583,high,1.82611,1.17389,131.113,134.007,134.007,136.011,7.25443,136.012,138.007
12,12,0,1,8,2,5.000000e-01,4,1.0,11.0,138.077,3.0,4,139.741,high,1.66428,1.33572,140.272,143.326,143.339,145.344,7.26684,145.344,153.327
13,13,1,1,2,0,2,4,1.0,12.0,153.337,3.0,4,154.837,high,1.50022,1.49978,155.367,160.086,160.101,162.107,8.76961,162.107,164.085
14,14,0,2,2,0,3.500000e+00,2,1.0,13.0,164.335,3.0,2,166.097,high,1.76141,1.23859,166.627,172.585,172.599,174.604,10.2687,174.604,176.584
15,15,0,3,4,2,2,8,1.0,14.0,176.832,3.0,8,178.307,high,1.47439,1.52561,178.837,183.581,183.594,185.598,8.76591,185.598,189.581
16,16,1,1,4,4,5.000000e-01,8,1.0,15.0,189.595,3.0,8,191.35,high,1.75497,1.24503,191.88,194.845,194.86,196.865,7.26953,196.865,200.845
17,17,1,2,2,8,3.500000e+00,4,1.0,16.0,201.102,2.0,8,202.877,high,1.77492,1.22508,203.407,209.352,209.366,211.371,10.2695,211.371,213.352
18,18,0,2,6,4,5.000000e-01,0,1.0,17.0,213.619,2.0,4,215.404,high,1.78488,1.21512,215.934,218.867,218.881,220.887,7.26841,220.887,226.869
19,19,0,3,2,0,5.000000e-01,8,1.0,18.0,227.106,3.0,8,228.598,high,1.49211,1.50789,229.129,232.355,232.367,234.371,7.26584,234.372,236.356
20,20,0,2,2,2,5.000000e-01,8,1.0,19.0,236.613,3.0,8,238.022,high,1.40922,1.59078,238.551,241.863,241.876,243.88,7.26731,243.881,245.863
21,21,0,1,2,2,5.000000e-01,8,1.0,20.0,245.871,3.0,8,247.279,high,1.40809,1.59191,247.81,251.119,251.133,253.138,7.26688,253.138,255.119
22,22,1,3,6,8,5.000000e-01,0,1.0,21.0,255.361,2.0,8,257.021,high,1.66033,1.33967,257.55,260.61,260.623,262.628,7.26677,262.628,268.61
23,23,0,1,2,0,5.000000e-01,2,1.0,22.0,268.631,3.0,2,270.432,high,1.80073,1.19927,270.963,273.881,273.895,275.899,7.26742,275.899,277.881
24,24,1,1,6,2,2,0,1.0,23.0,277.896,2.0,2,279.606,high,1.71032,1.28968,280.136,284.645,284.66,286.665,8.76917,286.665,292.646
25,25,1,1,2,2,5.000000e-01,4,1.0,24.0,292.656,3.0,4,294.202,high,1.54502,1.45498,294.732,297.906,297.906,299.911,7.25494,299.912,301.906
26,26,0,3,2,4,5.000000e-01,8,1.0,25.0,302.173,3.0,8,303.576,high,1.40268,1.59732,304.107,307.423,307.436,309.441,7.26797,309.442,311.423
27,27,0,1,4,0,5.000000e-01,8,1.0,26.0,311.439,3.0,8,312.917,high,1.47835,1.52165,313.448,316.689,316.702,318.707,7.26848,318.707,322.688
28,28,1,2,4,0,2,4,1.0,27.0,322.919,3.0,4,324.56,high,1.6412,1.3588,325.091,329.668,329.682,331.686,8.76694,331.686,335.668
29,29,1,3,2,8,2,4,1.0,28.0,335.896,2.0,8,337.703,high,1.80734,1.19266,338.235,342.646,342.659,344.664,8.76819,344.664,346.645
30,30,1,3,4,4,3.500000e+00,0,1.0,29.0,346.904,2.0,4,348.413,high,1.50901,1.49099,348.942,355.154,355.154,357.159,10.2552,357.159,361.154
31,31,0,2,2,4,5.000000e-01,8,1.0,30.0,361.417,3.0,8,362.958,high,1.54118,1.45882,363.488,366.666,366.679,368.683,7.26643,368.684,370.667
32,32,1,3,4,2,2,4,1.0,31.0,370.901,3.0,4,372.633,high,1.7317,1.2683,373.162,377.651,377.664,379.669,8.76811,379.669,383.651
33,33,1,2,4,0,5.000000e-01,8,1.0,32.0,383.89,3.0,8,385.427,high,1.53686,1.46314,385.957,389.14,389.154,391.159,7.26939,391.16,395.139
34,34,1,2,2,8,5.000000e-01,2,1.0,33.0,395.373,2.0,8,397.053,high,1.67951,1.32049,397.583,400.622,400.623,402.626,7.25302,402.627,404.622
35,35,0,2,8,4,2,2,1.0,34.0,404.812,2.0,4,406.427,high,1.61539,1.38461,406.957,411.561,411.574,413.579,8.76669,413.579,421.562
36,36,1,2,2,0,3.500000e+00,2,1.0,35.0,421.817,3.0,2,423.608,high,1.79079,1.20921,424.14,430.068,430.081,432.086,10.2687,432.086,434.067
TrialNumber,Trial,Reciprocate,Partner,ITI,cLeft,ISI,cRight,ran,order,onset,bpress,resp,resp_onset,highlow,rt,ISIpad,ISI_onset,ISI_offset,outcome_onset,outcome_offset,duration,ITI_onset,ITI_offset
1,1,0,3,2,0,2,2,1.0,0.0,4.28819,3.0,2,7.1489,high,2.86071,0.139291,7.67985,11.0378,11.0522,13.057,8.76878,13.0574,15.0368
2,2,1,3,2,0,5.000000e-01,2,1.0,1.0,15.2586,3.0,2,17.4907,high,2.23207,0.767931,18.0212,20.5085,20.5234,22.5274,7.2688,22.5277,24.5073
3,3,1,2,4,2,2,4,1.0,2.0,24.7844,2.0,2,27.1988,low,2.41443,0.58557,27.7291,31.5343,31.5477,33.5521,8.76765,33.5523,37.533
4,4,0,3,6,4,3.500000e+00,0,1.0,3.0,37.7636,3.0,0,39.4254,low,1.66181,1.33819,39.9571,46.0122,46.0124,48.0171,10.2535,48.0174,54.0123
5,5,1,3,4,2,2,8,1.0,4.0,54.2897,2.0,2,56.4056,low,2.11586,0.884138,56.9365,61.0388,61.0524,63.0568,8.76713,63.0571,67.0399
6,6,0,1,6,0,5.000000e-01,4,1.0,5.0,67.0716,3.0,4,68.5494,high,1.47779,1.52221,69.0793,72.3206,72.3344,74.3399,7.2683,74.3402,80.3209
7,7,0,1,4,8,3.500000e+00,4,1.0,6.0,80.3321,2.0,8,82.761,high,2.42896,0.571035,83.2916,88.5813,88.5815,90.5861,10.254,90.5864,94.5821
8,8,0,3,2,2,5.000000e-01,4,1.0,7.0,94.8475,3.0,4,96.3718,high,1.52435,1.47565,96.9018,100.096,100.108,102.113,7.2653,102.113,104.098
9,9,0,2,8,0,5.000000e-01,8,1.0,8.0,104.363,999.0,999,107.364,999,0.0,0.0,107.378,109.613,999.0,999.0,894.637,111.634,119.613
10,10,1,1,2,0,5.000000e-01,8,1.0,9.0,119.622,2.0,0,121.226,low,1.60384,1.39616,121.756,124.872,124.872,126.877,7.25505,126.877,128.872
11,11,1,1,2,8,5.000000e-01,2,1.0,10.0,128.887,2.0,8,130.784,high,1.89675,1.10325,131.315,134.137,134.213,136.217,7.33003,136.217,138.137
12,12,0,1,8,2,5.000000e-01,4,1.0,11.0,138.154,2.0,2,140.141,low,1.98772,1.01228,140.672,143.403,143.416,145.422,7.26802,145.422,153.403
13,13,1,1,2,0,2,4,1.0,12.0,153.414,2.0,0,155.221,low,1.80689,1.19311,155.751,160.162,160.162,162.167,8.75352,162.168,164.163
14,14,0,2,2,0,3.500000e+00,2,1.0,13.0,164.443,3.0,2,166.013,high,1.56949,1.43051,166.544,172.693,172.705,174.71,10.2669,174.71,176.693
15,15,0,3,4,2,2,8,1.0,14.0,176.979,3.0,8,179.941,high,2.96134,0.0386593,180.471,183.729,183.741,185.747,8.76764,185.747,189.729
16,16,1,1,4,4,5.000000e-01,8,1.0,15.0,189.744,2.0,4,191.617,low,1.87359,1.12641,192.147,194.993,195.008,197.012,7.26816,197.012,200.994
17,17,1,2,2,8,3.500000e+00,4,1.0,16.0,201.251,3.0,4,203.227,low,1.97562,1.02438,203.757,209.5,209.513,211.518,10.2672,211.519,213.5
18,18,0,2,6,4,5.000000e-01,0,1.0,17.0,213.756,2.0,4,215.136,high,1.38093,1.61907,215.667,219.005,219.017,221.021,7.26573,221.022,227.005
19,19,0,3,2,0,5.000000e-01,8,1.0,18.0,227.278,2.0,0,228.948,low,1.66986,1.33014,229.478,232.527,232.527,234.532,7.25459,234.533,236.527
20,20,0,2,2,2,5.000000e-01,8,1.0,19.0,236.81,2.0,2,238.823,low,2.013,0.987002,239.352,242.059,242.059,244.064,7.25406,244.064,246.06
21,21,0,1,2,2,5.000000e-01,8,1.0,20.0,246.068,2.0,2,247.546,low,1.47812,1.52188,248.076,251.319,251.332,253.338,7.26947,253.338,255.318
22,22,1,3,6,8,5.000000e-01,0,1.0,21.0,255.61,3.0,0,257.121,low,1.5109,1.4891,257.651,260.86,260.86,262.865,7.25548,262.866,268.86
23,23,0,1,2,0,5.000000e-01,2,1.0,22.0,268.881,2.0,0,270.515,low,1.63456,1.36544,271.046,274.131,274.131,276.136,7.25502,276.136,278.131
24,24,1,1,6,2,2,0,1.0,23.0,278.146,3.0,0,279.356,low,1.20958,1.79042,279.886,284.895,284.895,286.899,8.75298,286.899,292.895
25,25,1,1,2,2,5.000000e-01,4,1.0,24.0,292.906,2.0,2,294.185,low,1.27889,1.72111,294.716,298.155,298.17,300.174,7.26867,300.175,302.154
26,26,0,3,2,4,5.000000e-01,8,1.0,25.0,302.414,3.0,8,303.842,high,1.42809,1.57191,304.373,307.663,307.676,309.679,7.26497,309.68,311.665
27,27,0,1,4,0,5.000000e-01,8,1.0,26.0,311.681,3.0,8,313.901,high,2.22039,0.77961,314.431,316.93,316.944,318.949,7.26838,318.949,322.93
28,28,1,2,4,0,2,4,1.0,27.0,323.18,2.0,0,324.81,low,1.62962,1.37038,325.34,329.93,329.93,331.935,8.75519,331.936,335.929
29,29,1,3,2,8,2,4,1.0,28.0,336.215,3.0,4,338.588,low,2.37276,0.627237,339.117,342.964,342.978,344.982,8.76738,344.983,346.964
30,30,1,3,4,4,3.500000e+00,0,1.0,29.0,347.229,3.0,0,349.464,low,2.23477,0.765229,349.993,355.478,355.478,357.482,10.2525,357.482,361.479
31,31,0,2,2,4,5.000000e-01,8,1.0,30.0,361.76,2.0,4,363.925,low,2.16458,0.835421,364.455,367.01,367.023,369.028,7.2676,369.028,371.011
32,32,1,3,4,2,2,4,1.0,31.0,371.273,2.0,2,373.132,low,1.85935,1.14065,373.662,378.022,378.035,380.04,8.76699,380.04,384.023
33,33,1,2,4,0,5.000000e-01,8,1.0,32.0,384.296,2.0,0,386.727,low,2.43163,0.568374,387.258,389.546,389.546,391.55,7.25427,391.55,395.546
34,34,1,2,2,8,5.000000e-01,2,1.0,33.0,395.803,3.0,2,397.77,low,1.96651,1.03349,398.3,401.052,401.065,403.07,7.26681,403.07,405.053
35,35,0,2,8,4,2,2,1.0,34.0,405.299,3.0,2,407.544,low,2.2457,0.754301,408.074,412.047,412.059,414.064,8.76559,414.064,422.048
36,36,1,2,2,0,3.500000e+00,2,1.0,35.0,422.324,2.0,0,424.575,low,2.25097,0.749029,425.105,430.573,430.573,432.577,10.2534,432.578,434.573
